E /V	I /uA	I /uA
0.500	0.130	7.040
0.499	0.102	6.998
0.498	0.083	6.964
0.497	0.064	6.932
0.496	0.061	6.908
0.495	0.042	6.871
0.494	0.034	6.841
0.493	0.027	6.812
0.492	0.021	6.785
0.491	0.016	6.756
0.490	0.012	6.728
0.489	0.005	6.698
0.488	-0.001	6.669
0.487	-0.007	6.642
0.486	-0.013	6.613
0.485	-0.019	6.584
0.484	-0.023	6.555
0.483	-0.026	6.530
0.482	-0.029	6.505
0.481	-0.031	6.478
0.480	-0.035	6.452
0.479	-0.039	6.425
0.478	-0.043	6.401
0.477	-0.046	6.377
0.476	-0.049	6.351
0.475	-0.052	6.323
0.474	-0.054	6.302
0.473	-0.056	6.276
0.472	-0.057	6.249
0.471	-0.058	6.227
0.470	-0.060	6.209
0.469	-0.062	6.195
0.468	-0.063	6.176
0.467	-0.064	6.153
0.466	-0.068	6.129
0.465	-0.070	6.107
0.464	-0.073	6.085
0.463	-0.078	6.057
0.462	-0.081	6.031
0.461	-0.085	6.010
0.460	-0.088	5.995
0.459	-0.090	5.979
0.458	-0.092	5.958
0.457	-0.093	5.935
0.456	-0.094	5.913
0.455	-0.093	5.896
0.454	-0.092	5.874
0.453	-0.092	5.855
0.452	-0.091	5.834
0.451	-0.089	5.813
0.450	-0.087	5.794
0.449	-0.086	5.773
0.448	-0.084	5.751
0.447	-0.082	5.728
0.446	-0.081	5.706
0.445	-0.081	5.684
0.444	-0.082	5.664
0.443	-0.085	5.641
0.442	-0.086	5.620
0.441	-0.087	5.600
0.440	-0.089	5.582
0.439	-0.091	5.565
0.438	-0.091	5.546
0.437	-0.090	5.528
0.436	-0.091	5.509
0.435	-0.093	5.491
0.434	-0.096	5.472
0.433	-0.099	5.450
0.432	-0.102	5.431
0.431	-0.105	5.410
0.430	-0.108	5.392
0.429	-0.110	5.374
0.428	-0.111	5.354
0.427	-0.111	5.334
0.426	-0.112	5.316
0.425	-0.113	5.297
0.424	-0.113	5.278
0.423	-0.113	5.258
0.422	-0.114	5.240
0.421	-0.115	5.221
0.420	-0.117	5.202
0.419	-0.118	5.182
0.418	-0.120	5.163
0.417	-0.122	5.144
0.416	-0.124	5.125
0.415	-0.125	5.103
0.414	-0.126	5.083
0.413	-0.127	5.066
0.412	-0.129	5.049
0.411	-0.133	5.032
0.410	-0.137	5.014
0.409	-0.140	4.999
0.408	-0.143	4.984
0.407	-0.146	4.967
0.406	-0.150	4.950
0.405	-0.154	4.932
0.404	-0.158	4.918
0.403	-0.160	4.902
0.402	-0.164	4.886
0.401	-0.169	4.872
0.400	-0.171	4.862
0.399	-0.171	4.852
0.398	-0.171	4.836
0.397	-0.173	4.815
0.396	-0.177	4.796
0.395	-0.179	4.776
0.394	-0.183	4.757
0.393	-0.189	4.734
0.392	-0.197	4.713
0.391	-0.205	4.695
0.390	-0.212	4.682
0.389	-0.217	4.668
0.388	-0.222	4.648
0.387	-0.227	4.630
0.386	-0.232	4.613
0.385	-0.233	4.595
0.384	-0.238	4.575
0.383	-0.243	4.554
0.382	-0.248	4.533
0.381	-0.255	4.513
0.380	-0.266	4.497
0.379	-0.275	4.477
0.378	-0.278	4.457
0.377	-0.280	4.437
0.376	-0.281	4.418
0.375	-0.281	4.395
0.374	-0.282	4.372
0.373	-0.283	4.351
0.372	-0.286	4.330
0.371	-0.292	4.308
0.370	-0.302	4.288
0.369	-0.310	4.266
0.368	-0.315	4.243
0.367	-0.322	4.220
0.366	-0.331	4.199
0.365	-0.338	4.176
0.364	-0.346	4.153
0.363	-0.357	4.130
0.362	-0.369	4.107
0.361	-0.379	4.081
0.360	-0.392	4.055
0.359	-0.405	4.029
0.358	-0.419	4.001
0.357	-0.432	3.977
0.356	-0.447	3.953
0.355	-0.459	3.929
0.354	-0.472	3.905
0.353	-0.487	3.882
0.352	-0.503	3.858
0.351	-0.516	3.831
0.350	-0.534	3.800
0.349	-0.549	3.768
0.348	-0.566	3.737
0.347	-0.584	3.704
0.346	-0.603	3.669
0.345	-0.621	3.636
0.344	-0.642	3.602
0.343	-0.663	3.568
0.342	-0.686	3.534
0.341	-0.707	3.497
0.340	-0.732	3.460
0.339	-0.755	3.426
0.338	-0.780	3.390
0.337	-0.807	3.351
0.336	-0.835	3.311
0.335	-0.863	3.272
0.334	-0.894	3.236
0.333	-0.925	3.193
0.332	-0.959	3.141
0.331	-0.990	3.093
0.330	-1.023	3.055
0.329	-1.057	3.012
0.328	-1.093	2.964
0.327	-1.134	2.915
0.326	-1.176	2.865
0.325	-1.218	2.818
0.324	-1.262	2.769
0.323	-1.310	2.708
0.322	-1.358	2.643
0.321	-1.405	2.583
0.320	-1.457	2.528
0.319	-1.508	2.464
0.318	-1.563	2.400
0.317	-1.620	2.334
0.316	-1.677	2.267
0.315	-1.734	2.200
0.314	-1.796	2.126
0.313	-1.859	2.048
0.312	-1.925	1.969
0.311	-1.985	1.888
0.310	-2.057	1.805
0.309	-2.134	1.719
0.308	-2.213	1.634
0.307	-2.287	1.542
0.306	-2.362	1.445
0.305	-2.444	1.347
0.304	-2.533	1.244
0.303	-2.619	1.139
0.302	-2.711	1.029
0.301	-2.802	0.920
0.300	-2.909	0.806
0.299	-3.021	0.689
0.298	-3.130	0.569
0.297	-3.235	0.441
0.296	-3.348	0.312
0.295	-3.470	0.181
0.294	-3.593	0.045
0.293	-3.718	-0.095
0.292	-3.850	-0.242
0.291	-3.989	-0.390
0.290	-4.133	-0.543
0.289	-4.282	-0.701
0.288	-4.433	-0.863
0.287	-4.589	-1.029
0.286	-4.754	-1.201
0.285	-4.922	-1.377
0.284	-5.094	-1.561
0.283	-5.272	-1.753
0.282	-5.452	-1.952
0.281	-5.640	-2.158
0.280	-5.835	-2.370
0.279	-6.034	-2.589
0.278	-6.237	-2.814
0.277	-6.446	-3.045
0.276	-6.667	-3.280
0.275	-6.893	-3.521
0.274	-7.128	-3.767
0.273	-7.368	-4.019
0.272	-7.617	-4.275
0.271	-7.872	-4.539
0.270	-8.135	-4.809
0.269	-8.403	-5.090
0.268	-8.677	-5.380
0.267	-8.957	-5.676
0.266	-9.247	-5.978
0.265	-9.543	-6.287
0.264	-9.848	-6.601
0.263	-10.160	-6.933
0.262	-10.482	-7.272
0.261	-10.807	-7.610
0.260	-11.141	-7.952
0.259	-11.482	-8.307
0.258	-11.833	-8.670
0.257	-12.190	-9.037
0.256	-12.558	-9.409
0.255	-12.931	-9.786
0.254	-13.318	-10.177
0.253	-13.714	-10.586
0.252	-14.117	-11.001
0.251	-14.523	-11.417
0.250	-14.938	-11.844
0.249	-15.360	-12.284
0.248	-15.794	-12.732
0.247	-16.230	-13.185
0.246	-16.676	-13.642
0.245	-17.127	-14.106
0.244	-17.587	-14.577
0.243	-18.054	-15.051
0.242	-18.525	-15.536
0.241	-18.992	-16.026
0.240	-19.476	-16.522
0.239	-19.973	-17.026
0.238	-20.475	-17.540
0.237	-20.973	-18.059
0.236	-21.479	-18.584
0.235	-21.992	-19.115
0.234	-22.514	-19.650
0.233	-23.035	-20.191
0.232	-23.563	-20.737
0.231	-24.090	-21.287
0.230	-24.637	-21.837
0.229	-25.187	-22.392
0.228	-25.735	-22.950
0.227	-26.280	-23.508
0.226	-26.833	-24.071
0.225	-27.388	-24.635
0.224	-27.948	-25.202
0.223	-28.503	-25.773
0.222	-29.063	-26.344
0.221	-29.625	-26.919
0.220	-30.190	-27.490
0.219	-30.753	-28.061
0.218	-31.317	-28.626
0.217	-31.877	-29.190
0.216	-32.443	-29.753
0.215	-33.000	-30.314
0.214	-33.561	-30.873
0.213	-34.110	-31.428
0.212	-34.657	-31.984
0.211	-35.201	-32.539
0.210	-35.740	-33.086
0.209	-36.275	-33.627
0.208	-36.808	-34.160
0.207	-37.334	-34.688
0.206	-37.859	-35.210
0.205	-38.373	-35.728
0.204	-38.884	-36.237
0.203	-39.381	-36.736
0.202	-39.870	-37.232
0.201	-40.351	-37.715
0.200	-40.823	-38.189
0.199	-41.286	-38.650
0.198	-41.740	-39.103
0.197	-42.181	-39.544
0.196	-42.615	-39.977
0.195	-43.034	-40.390
0.194	-43.440	-40.798
0.193	-43.835	-41.200
0.192	-44.220	-41.586
0.191	-44.591	-41.948
0.190	-44.951	-42.295
0.189	-45.297	-42.632
0.188	-45.632	-42.960
0.187	-45.953	-43.270
0.186	-46.262	-43.566
0.185	-46.551	-43.842
0.184	-46.826	-44.120
0.183	-47.086	-44.382
0.182	-47.330	-44.623
0.181	-47.555	-44.838
0.180	-47.766	-45.042
0.179	-47.963	-45.236
0.178	-48.148	-45.416
0.177	-48.316	-45.577
0.176	-48.468	-45.721
0.175	-48.604	-45.853
0.174	-48.724	-45.976
0.173	-48.831	-46.078
0.172	-48.924	-46.168
0.171	-49.000	-46.238
0.170	-49.059	-46.296
0.169	-49.100	-46.334
0.168	-49.125	-46.359
0.167	-49.127	-46.370
0.166	-49.120	-46.365
0.165	-49.106	-46.351
0.164	-49.081	-46.327
0.163	-49.050	-46.290
0.162	-49.009	-46.241
0.161	-48.959	-46.179
0.160	-48.896	-46.107
0.159	-48.817	-46.017
0.158	-48.725	-45.922
0.157	-48.616	-45.818
0.156	-48.499	-45.701
0.155	-48.376	-45.574
0.154	-48.241	-45.438
0.153	-48.101	-45.296
0.152	-47.953	-45.146
0.151	-47.797	-44.989
0.150	-47.631	-44.824
0.149	-47.462	-44.650
0.148	-47.283	-44.473
0.147	-47.098	-44.290
0.146	-46.907	-44.098
0.145	-46.710	-43.901
0.144	-46.507	-43.698
0.143	-46.303	-43.493
0.142	-46.094	-43.284
0.141	-45.878	-43.074
0.140	-45.660	-42.861
0.139	-45.438	-42.645
0.138	-45.213	-42.427
0.137	-44.987	-42.208
0.136	-44.759	-41.988
0.135	-44.527	-41.764
0.134	-44.297	-41.537
0.133	-44.066	-41.310
0.132	-43.834	-41.081
0.131	-43.601	-40.853
0.130	-43.369	-40.623
0.129	-43.134	-40.393
0.128	-42.900	-40.163
0.127	-42.664	-39.933
0.126	-42.429	-39.701
0.125	-42.197	-39.462
0.124	-41.968	-39.235
0.123	-41.737	-39.012
0.122	-41.507	-38.782
0.121	-41.280	-38.549
0.120	-41.052	-38.318
0.119	-40.823	-38.093
0.118	-40.599	-37.870
0.117	-40.376	-37.644
0.116	-40.154	-37.419
0.115	-39.933	-37.197
0.114	-39.713	-36.989
0.113	-39.496	-36.781
0.112	-39.280	-36.568
0.111	-39.066	-36.355
0.110	-38.853	-36.149
0.109	-38.645	-35.945
0.108	-38.438	-35.744
0.107	-38.234	-35.541
0.106	-38.030	-35.342
0.105	-37.828	-35.145
0.104	-37.629	-34.953
0.103	-37.429	-34.760
0.102	-37.228	-34.571
0.101	-37.027	-34.383
0.100	-36.844	-34.198
0.099	-36.657	-34.012
0.098	-36.463	-33.830
0.097	-36.270	-33.649
0.096	-36.083	-33.470
0.095	-35.902	-33.295
0.094	-35.719	-33.123
0.093	-35.536	-32.952
0.092	-35.355	-32.782
0.091	-35.179	-32.614
0.090	-35.018	-32.447
0.089	-34.849	-32.280
0.088	-34.678	-32.116
0.087	-34.508	-31.955
0.086	-34.348	-31.799
0.085	-34.191	-31.642
0.084	-34.033	-31.486
0.083	-33.877	-31.337
0.082	-33.722	-31.187
0.081	-33.569	-31.042
0.080	-33.417	-30.895
0.079	-33.268	-30.750
0.078	-33.118	-30.609
0.077	-32.971	-30.472
0.076	-32.828	-30.337
0.075	-32.685	-30.198
0.074	-32.547	-30.063
0.073	-32.407	-29.931
0.072	-32.269	-29.801
0.071	-32.135	-29.672
0.070	-32.001	-29.543
0.069	-31.870	-29.413
0.068	-31.739	-29.289
0.067	-31.610	-29.167
0.066	-31.484	-29.045
0.065	-31.357	-28.925
0.064	-31.235	-28.807
0.063	-31.111	-28.691
0.062	-30.993	-28.579
0.061	-30.875	-28.465
0.060	-30.757	-28.352
0.059	-30.643	-28.239
0.058	-30.529	-28.127
0.057	-30.414	-28.017
0.056	-30.303	-27.908
0.055	-30.190	-27.795
0.054	-30.081	-27.695
0.053	-29.972	-27.597
0.052	-29.866	-27.493
0.051	-29.760	-27.385
0.050	-29.653	-27.280
0.049	-29.551	-27.179
0.048	-29.449	-27.075
0.047	-29.348	-26.974
0.046	-29.250	-26.873
0.045	-29.147	-26.776
0.044	-29.049	-26.694
0.043	-28.954	-26.605
0.042	-28.862	-26.509
0.041	-28.770	-26.415
0.040	-28.674	-26.324
0.039	-28.586	-26.237
0.038	-28.493	-26.145
0.037	-28.403	-26.053
0.036	-28.313	-25.968
0.035	-28.220	-25.883
0.034	-28.128	-25.799
0.033	-28.043	-25.715
0.032	-27.951	-25.632
0.031	-27.866	-25.554
0.030	-27.789	-25.477
0.029	-27.711	-25.398
0.028	-27.624	-25.319
0.027	-27.537	-25.242
0.026	-27.452	-25.165
0.025	-27.370	-25.087
0.024	-27.285	-25.011
0.023	-27.201	-24.936
0.022	-27.115	-24.862
0.021	-27.041	-24.789
0.020	-26.972	-24.716
0.019	-26.894	-24.640
0.018	-26.815	-24.568
0.017	-26.738	-24.496
0.016	-26.665	-24.426
0.015	-26.592	-24.357
0.014	-26.515	-24.290
0.013	-26.442	-24.225
0.012	-26.374	-24.161
0.011	-26.304	-24.097
0.010	-26.233	-24.035
0.009	-26.165	-23.971
0.008	-26.099	-23.906
0.007	-26.033	-23.844
0.006	-25.968	-23.783
0.005	-25.901	-23.720
0.004	-25.838	-23.658
0.003	-25.775	-23.598
0.002	-25.710	-23.537
0.001	-25.636	-23.475
0.000	-25.563	-23.411
0.001	-25.490	-23.341
0.002	-25.414	-23.270
0.003	-25.339	-23.201
0.004	-25.266	-23.133
0.005	-25.193	-23.066
0.006	-25.125	-23.000
0.007	-25.059	-22.938
0.008	-24.995	-22.876
0.009	-24.927	-22.815
0.010	-24.861	-22.754
0.011	-24.797	-22.692
0.012	-24.732	-22.633
0.013	-24.669	-22.578
0.014	-24.606	-22.515
0.015	-24.544	-22.454
0.016	-24.481	-22.401
0.017	-24.422	-22.347
0.018	-24.365	-22.284
0.019	-24.306	-22.224
0.020	-24.246	-22.167
0.021	-24.189	-22.110
0.022	-24.131	-22.053
0.023	-24.073	-21.993
0.024	-24.016	-21.931
0.025	-23.960	-21.875
0.026	-23.903	-21.823
0.027	-23.849	-21.767
0.028	-23.796	-21.707
0.029	-23.738	-21.656
0.030	-23.678	-21.602
0.031	-23.620	-21.549
0.032	-23.561	-21.497
0.033	-23.503	-21.442
0.034	-23.448	-21.393
0.035	-23.392	-21.341
0.036	-23.339	-21.290
0.037	-23.289	-21.241
0.038	-23.231	-21.190
0.039	-23.173	-21.142
0.040	-23.125	-21.091
0.041	-23.071	-21.038
0.042	-23.010	-20.988
0.043	-22.949	-20.935
0.044	-22.893	-20.885
0.045	-22.839	-20.835
0.046	-22.784	-20.784
0.047	-22.728	-20.734
0.048	-22.669	-20.685
0.049	-22.617	-20.638
0.050	-22.570	-20.589
0.051	-22.513	-20.536
0.052	-22.451	-20.487
0.053	-22.394	-20.434
0.054	-22.341	-20.382
0.055	-22.287	-20.329
0.056	-22.231	-20.274
0.057	-22.175	-20.222
0.058	-22.120	-20.171
0.059	-22.066	-20.120
0.060	-22.012	-20.068
0.061	-21.960	-20.020
0.062	-21.907	-19.971
0.063	-21.855	-19.920
0.064	-21.802	-19.869
0.065	-21.746	-19.815
0.066	-21.688	-19.759
0.067	-21.628	-19.706
0.068	-21.567	-19.650
0.069	-21.507	-19.599
0.070	-21.451	-19.546
0.071	-21.392	-19.492
0.072	-21.332	-19.438
0.073	-21.275	-19.383
0.074	-21.217	-19.326
0.075	-21.157	-19.266
0.076	-21.096	-19.204
0.077	-21.035	-19.145
0.078	-20.972	-19.086
0.079	-20.908	-19.030
0.080	-20.844	-18.967
0.081	-20.775	-18.902
0.082	-20.706	-18.838
0.083	-20.634	-18.771
0.084	-20.563	-18.699
0.085	-20.489	-18.632
0.086	-20.418	-18.570
0.087	-20.347	-18.504
0.088	-20.276	-18.430
0.089	-20.204	-18.357
0.090	-20.129	-18.284
0.091	-20.055	-18.208
0.092	-19.978	-18.127
0.093	-19.897	-18.042
0.094	-19.817	-17.958
0.095	-19.732	-17.882
0.096	-19.648	-17.806
0.097	-19.562	-17.721
0.098	-19.476	-17.632
0.099	-19.388	-17.546
0.100	-19.298	-17.462
0.101	-19.209	-17.374
0.102	-19.118	-17.278
0.103	-19.021	-17.184
0.104	-18.918	-17.090
0.105	-18.814	-16.993
0.106	-18.708	-16.892
0.107	-18.598	-16.786
0.108	-18.481	-16.678
0.109	-18.363	-16.568
0.110	-18.254	-16.455
0.111	-18.140	-16.341
0.112	-18.019	-16.222
0.113	-17.891	-16.102
0.114	-17.764	-15.981
0.115	-17.637	-15.856
0.116	-17.503	-15.727
0.117	-17.361	-15.593
0.118	-17.211	-15.458
0.119	-17.065	-15.316
0.120	-16.921	-15.172
0.121	-16.765	-15.023
0.122	-16.602	-14.872
0.123	-16.439	-14.716
0.124	-16.278	-14.556
0.125	-16.111	-14.390
0.126	-15.938	-14.219
0.127	-15.763	-14.042
0.128	-15.580	-13.861
0.129	-15.394	-13.674
0.130	-15.203	-13.483
0.131	-15.005	-13.284
0.132	-14.801	-13.085
0.133	-14.589	-12.881
0.134	-14.375	-12.671
0.135	-14.154	-12.450
0.136	-13.929	-12.226
0.137	-13.696	-12.000
0.138	-13.455	-11.769
0.139	-13.210	-11.528
0.140	-12.960	-11.284
0.141	-12.704	-11.032
0.142	-12.442	-10.774
0.143	-12.171	-10.512
0.144	-11.894	-10.239
0.145	-11.610	-9.957
0.146	-11.321	-9.672
0.147	-11.023	-9.379
0.148	-10.717	-9.078
0.149	-10.405	-8.769
0.150	-10.087	-8.454
0.151	-9.764	-8.131
0.152	-9.433	-7.801
0.153	-9.091	-7.459
0.154	-8.742	-7.106
0.155	-8.385	-6.759
0.156	-8.017	-6.403
0.157	-7.642	-6.029
0.158	-7.256	-5.644
0.159	-6.864	-5.255
0.160	-6.464	-4.862
0.161	-6.062	-4.460
0.162	-5.655	-4.051
0.163	-5.241	-3.629
0.164	-4.821	-3.204
0.165	-4.390	-2.782
0.166	-3.952	-2.345
0.167	-3.504	-1.893
0.168	-3.045	-1.432
0.169	-2.579	-0.970
0.170	-2.105	-0.504
0.171	-1.627	-0.028
0.172	-1.143	0.456
0.173	-0.651	0.945
0.174	-0.153	1.440
0.175	0.351	1.942
0.176	0.859	2.451
0.177	1.377	2.965
0.178	1.906	3.487
0.179	2.430	4.012
0.180	2.961	4.540
0.181	3.510	5.079
0.182	4.064	5.624
0.183	4.620	6.171
0.184	5.179	6.724
0.185	5.739	7.281
0.186	6.303	7.841
0.187	6.869	8.404
0.188	7.440	8.971
0.189	8.001	9.539
0.190	8.573	10.108
0.191	9.154	10.683
0.192	9.732	11.258
0.193	10.311	11.832
0.194	10.888	12.407
0.195	11.468	12.982
0.196	12.047	13.556
0.197	12.622	14.129
0.198	13.199	14.706
0.199	13.773	15.283
0.200	14.344	15.861
0.201	14.912	16.437
0.202	15.479	17.008
0.203	16.046	17.576
0.204	16.608	18.139
0.205	17.168	18.699
0.206	17.720	19.252
0.207	18.266	19.796
0.208	18.805	20.338
0.209	19.337	20.875
0.210	19.859	21.406
0.211	20.376	21.926
0.212	20.889	22.439
0.213	21.394	22.947
0.214	21.892	23.444
0.215	22.386	23.936
0.216	22.869	24.415
0.217	23.343	24.886
0.218	23.802	25.346
0.219	24.253	25.796
0.220	24.691	26.236
0.221	25.118	26.662
0.222	25.533	27.079
0.223	25.937	27.489
0.224	26.328	27.884
0.225	26.708	28.260
0.226	27.074	28.625
0.227	27.427	28.987
0.228	27.766	29.333
0.229	28.089	29.662
0.230	28.397	29.975
0.231	28.692	30.274
0.232	28.972	30.562
0.233	29.240	30.837
0.234	29.492	31.090
0.235	29.728	31.323
0.236	29.951	31.550
0.237	30.159	31.765
0.238	30.351	31.960
0.239	30.528	32.137
0.240	30.688	32.300
0.241	30.837	32.451
0.242	30.970	32.588
0.243	31.091	32.711
0.244	31.195	32.816
0.245	31.285	32.907
0.246	31.363	32.983
0.247	31.424	33.044
0.248	31.467	33.091
0.249	31.495	33.126
0.250	31.508	33.146
0.251	31.519	33.153
0.252	31.518	33.150
0.253	31.505	33.133
0.254	31.479	33.104
0.255	31.443	33.062
0.256	31.400	33.010
0.257	31.342	32.944
0.258	31.266	32.869
0.259	31.178	32.783
0.260	31.082	32.685
0.261	30.984	32.580
0.262	30.871	32.466
0.263	30.747	32.341
0.264	30.615	32.210
0.265	30.476	32.070
0.266	30.333	31.923
0.267	30.182	31.767
0.268	30.020	31.605
0.269	29.854	31.440
0.270	29.682	31.267
0.271	29.506	31.090
0.272	29.321	30.907
0.273	29.136	30.721
0.274	28.945	30.531
0.275	28.750	30.336
0.276	28.552	30.138
0.277	28.352	29.931
0.278	28.145	29.722
0.279	27.937	29.515
0.280	27.727	29.300
0.281	27.517	29.085
0.282	27.303	28.866
0.283	27.089	28.648
0.284	26.871	28.429
0.285	26.655	28.211
0.286	26.437	27.990
0.287	26.223	27.767
0.288	26.003	27.546
0.289	25.785	27.328
0.290	25.566	27.106
0.291	25.350	26.886
0.292	25.130	26.668
0.293	24.912	26.456
0.294	24.694	26.239
0.295	24.480	26.014
0.296	24.268	25.799
0.297	24.058	25.590
0.298	23.845	25.376
0.299	23.637	25.164
0.300	23.429	24.955
0.301	23.219	24.752
0.302	23.009	24.554
0.303	22.802	24.357
0.304	22.598	24.151
0.305	22.392	23.946
0.306	22.191	23.753
0.307	21.991	23.557
0.308	21.793	23.354
0.309	21.602	23.156
0.310	21.409	22.959
0.311	21.217	22.766
0.312	21.027	22.573
0.313	20.843	22.380
0.314	20.662	22.192
0.315	20.480	22.008
0.316	20.302	21.825
0.317	20.130	21.644
0.318	19.958	21.464
0.319	19.779	21.289
0.320	19.603	21.115
0.321	19.437	20.942
0.322	19.274	20.773
0.323	19.111	20.605
0.324	18.949	20.440
0.325	18.790	20.278
0.326	18.635	20.116
0.327	18.487	19.955
0.328	18.331	19.794
0.329	18.171	19.636
0.330	18.021	19.482
0.331	17.879	19.330
0.332	17.734	19.180
0.333	17.587	19.033
0.334	17.440	18.887
0.335	17.299	18.745
0.336	17.157	18.604
0.337	17.019	18.462
0.338	16.882	18.322
0.339	16.747	18.185
0.340	16.615	18.052
0.341	16.485	17.921
0.342	16.356	17.791
0.343	16.226	17.664
0.344	16.098	17.537
0.345	15.974	17.414
0.346	15.850	17.286
0.347	15.730	17.160
0.348	15.612	17.037
0.349	15.496	16.915
0.350	15.380	16.793
0.351	15.264	16.674
0.352	15.150	16.557
0.353	15.035	16.443
0.354	14.925	16.331
0.355	14.817	16.220
0.356	14.709	16.109
0.357	14.604	16.000
0.358	14.501	15.895
0.359	14.400	15.789
0.360	14.296	15.684
0.361	14.195	15.579
0.362	14.094	15.484
0.363	13.995	15.382
0.364	13.898	15.278
0.365	13.800	15.177
0.366	13.705	15.087
0.367	13.611	14.999
0.368	13.519	14.907
0.369	13.432	14.815
0.370	13.342	14.725
0.371	13.254	14.638
0.372	13.166	14.555
0.373	13.082	14.464
0.374	12.998	14.373
0.375	12.910	14.287
0.376	12.825	14.208
0.377	12.740	14.126
0.378	12.657	14.040
0.379	12.577	13.958
0.380	12.495	13.876
0.381	12.417	13.796
0.382	12.342	13.715
0.383	12.269	13.638
0.384	12.195	13.562
0.385	12.117	13.485
0.386	12.043	13.410
0.387	11.975	13.334
0.388	11.902	13.260
0.389	11.822	13.188
0.390	11.745	13.111
0.391	11.682	13.036
0.392	11.619	12.963
0.393	11.554	12.891
0.394	11.489	12.821
0.395	11.427	12.753
0.396	11.365	12.687
0.397	11.309	12.619
0.398	11.239	12.554
0.399	11.166	12.489
0.400	11.100	12.423
0.401	11.041	12.359
0.402	10.980	12.295
0.403	10.917	12.232
0.404	10.856	12.169
0.405	10.796	12.107
0.406	10.737	12.048
0.407	10.678	11.988
0.408	10.616	11.929
0.409	10.558	11.869
0.410	10.501	11.811
0.411	10.445	11.753
0.412	10.389	11.696
0.413	10.335	11.640
0.414	10.280	11.583
0.415	10.224	11.528
0.416	10.170	11.470
0.417	10.115	11.414
0.418	10.062	11.357
0.419	10.011	11.302
0.420	9.959	11.247
0.421	9.908	11.193
0.422	9.858	11.139
0.423	9.810	11.087
0.424	9.762	11.036
0.425	9.714	10.985
0.426	9.667	10.933
0.427	9.618	10.885
0.428	9.568	10.837
0.429	9.519	10.789
0.430	9.470	10.739
0.431	9.422	10.692
0.432	9.375	10.644
0.433	9.331	10.600
0.434	9.287	10.554
0.435	9.243	10.511
0.436	9.198	10.475
0.437	9.152	10.437
0.438	9.107	10.393
0.439	9.063	10.348
0.440	9.021	10.303
0.441	8.978	10.260
0.442	8.939	10.214
0.443	8.899	10.170
0.444	8.858	10.124
0.445	8.817	10.085
0.446	8.774	10.048
0.447	8.733	10.005
0.448	8.692	9.960
0.449	8.651	9.917
0.450	8.613	9.878
0.451	8.574	9.837
0.452	8.536	9.796
0.453	8.497	9.756
0.454	8.458	9.718
0.455	8.418	9.680
0.456	8.379	9.641
0.457	8.343	9.601
0.458	8.311	9.562
0.459	8.275	9.523
0.460	8.247	9.487
0.461	8.223	9.450
0.462	8.195	9.413
0.463	8.162	9.378
0.464	8.130	9.343
0.465	8.095	9.310
0.466	8.061	9.275
0.467	8.027	9.239
0.468	7.992	9.205
0.469	7.954	9.171
0.470	7.926	9.137
0.471	7.899	9.102
0.472	7.867	9.067
0.473	7.835	9.033
0.474	7.805	8.998
0.475	7.775	8.964
0.476	7.745	8.930
0.477	7.712	8.897
0.478	7.679	8.866
0.479	7.646	8.833
0.480	7.616	8.802
0.481	7.585	8.770
0.482	7.553	8.738
0.483	7.523	8.707
0.484	7.493	8.678
0.485	7.464	8.648
0.486	7.437	8.617
0.487	7.409	8.587
0.488	7.381	8.557
0.489	7.351	8.524
0.490	7.322	8.492
0.491	7.291	8.459
0.492	7.261	8.428
0.493	7.233	8.399
0.494	7.205	8.372
0.495	7.178	8.343
0.496	7.159	8.317
0.497	7.129	8.286
0.498	7.105	8.256
0.499	7.078	8.226
